Folder: miscellaneous/Physics mini projects/data

Note: README.md
Laboratory
-----------
Laboratory files and projects.

Numerical analysis with C++
-----------
Exercises and methods learnt in Computation.

Physics mini projects
-----------
Little personal projects focused on physics and astrophysics.

Scientific computing with Python
-----------
Exercises done in Computation.

Three body problem
-----------
Three body problem based on the system Kepler-16. Made in collaboration with a classmate of Computation.

File: data_01.csv
Time t / s,Frequency f / Hz,Path s_A1 / cm,Relative pressure p_B1 / hPa,Volume V / cm^3,FFT V' / cm^3,absolute P (hPa),corrected V (cm3),temperature (K),Ideal pressures tmax (hPa),Ideal pressures tmin (hPa),,,,
0,0,5.16859,-18,146.271,166.613,982,273.597,271.386,1149.22,933.558,CONSTANT,127.326,,
0.004,3.90625,4.987925,-4,141.158,115.83,996,268.484,270.111,1171.1,951.336,T_min,257.998,V_min,150
0.008,7.8125,4.767985,12,134.934,21.9938,1012,262.26,268.088,1198.9,973.914,T_max,,,
0.012,11.71875,4.54019,31,128.487,4.25819,1031,255.813,266.407,1229.11,998.457,P_min=,1064.46,,
0.016,15.625,4.28883,53,121.374,2.76705,1053,248.7,264.526,1264.26,1027.02,T_min,,,
0.02,19.53125,4.013905,79,113.594,2.16122,1079,240.919,262.578,1305.09,1060.18,P_min=,864.706,,
0.024,23.4375,3.75469,108,106.258,1.85672,1108,233.583,261.425,1346.08,1093.48,,,,
0.028,27.34375,3.511185,140,99.3665,1.73068,1140,226.692,261.04,1387,1126.72,,,,
0.032,31.25,3.25197,174,92.0308,1.54978,1174,219.357,260.126,1433.38,1164.4,,,,
0.036,35.15625,2.977045,211,84.2504,1.46734,1211,211.576,258.807,1486.09,1207.22,,,,
0.04,39.0625,2.725685,252,77.1369,1.35748,1252,204.463,258.573,1537.8,1249.22,,,,
0.044,42.96875,2.48218,297,70.2457,1.28865,1297,197.571,258.839,1591.44,1292.79,,,,
0.048,46.875,2.23082,342,63.1322,1.15642,1342,190.458,258.176,1650.87,1341.07,,,,
0.052,50.78125,2.02659,393,57.3525,1.07073,1393,184.678,259.855,1702.54,1383.05,,,,
0.056,54.6875,1.80665,444,51.1282,0.979189,1444,178.454,260.29,1761.92,1431.28,,,,
0.06,58.59375,1.61813,498,45.7931,0.901425,1498,173.119,261.952,1816.22,1475.39,,,,
0.064,62.5,1.468885,551,41.5694,0.790504,1551,168.895,264.602,1861.64,1512.29,,,,
0.068,66.40625,1.30393,606,36.9012,0.677122,1606,164.227,266.413,1914.56,1555.28,,,,
0.072,70.3125,1.19396,660,33.7891,0.612143,1660,161.115,270.152,1951.54,1585.32,,,,
0.076,74.21875,1.076135,712,30.4546,0.514747,1712,157.78,272.848,1992.78,1618.82,,,,
0.08,78.125,0.98973,760,28.0094,0.442933,1760,155.335,276.151,2024.15,1644.31,,,,
0.084,82.03125,0.919035,804,26.0087,0.354659,1804,153.334,279.409,2050.56,1665.76,,,,
0.088,85.9375,0.86405,842,24.4526,0.248,1842,151.778,282.4,2071.59,1682.84,,,,
0.092,89.84375,0.83263,872,23.5634,0.165184,1872,150.889,285.318,2083.8,1692.75,,,,
0.096,93.75,0.809065,894,22.8965,0.0995482,1894,150.222,287.395,2093.05,1700.27,,,,
0.1,97.65625,0.80121,907,22.6742,0.0352981,1907,150,288.939,2096.15,1702.79,,,,
0.104,101.5625,0.809065,912,22.8965,0.0590809,1912,150.222,290.126,2093.05,1700.27,,,,
0.108,105.469,0.83263,908,23.5634,0.120894,1908,150.889,290.805,2083.8,1692.75,,,,
0.112,109.375,0.887615,897,25.1195,0.19061,1897,152.445,292.11,2062.53,1675.48,,,,
0.116,113.281,0.97402,881,27.5648,0.226573,1881,154.891,294.292,2029.96,1649.03,,,,
0.12,117.1875,1.08399,858,30.6769,0.273043,1858,158.003,296.534,1989.98,1616.54,,,,
0.124,121.094,1.19396,832,33.7891,0.313461,1832,161.115,298.144,1951.54,1585.32,,,,
0.128,125,1.327495,801,37.5681,0.348639,1801,164.894,299.974,1906.82,1548.99,,,,
0.132,128.906,1.500305,767,42.4586,0.360165,1767,169.784,303.039,1851.89,1504.37,,,,
0.136,132.8125,1.66526,732,47.1269,0.385811,1732,174.453,305.204,1802.34,1464.11,,,,
0.14,136.719,1.861635,689,52.6843,0.402453,1689,180.01,307.108,1746.69,1418.91,,,,
0.144,140.625,2.08943,645,59.1309,0.424444,1645,186.457,309.819,1686.3,1369.85,,,,
0.148,144.531,2.317225,601,65.5775,0.442331,1601,192.903,311.958,1629.95,1324.08,,,,
0.152,148.4375,2.584295,553,73.1355,0.41774,1553,200.461,314.461,1568.49,1274.15,,,,
0.156,152.344,2.84351,507,80.4713,0.410508,1507,207.797,316.313,1513.12,1229.17,,,,
0.16,156.25,3.102725,457,87.8071,0.400675,1457,215.133,316.615,1461.53,1187.26,,,,
0.164,160.156,3.369795,411,95.3652,0.379712,1411,222.691,317.391,1411.92,1146.96,,,,
0.168,164.0625,3.636865,362,102.923,0.370712,1362,230.249,316.767,1365.57,1109.31,,,,
0.172,167.969,3.89608,317,110.259,0.334106,1317,237.585,316.06,1323.41,1075.06,,,,
0.176,171.875,4.14744,271,117.373,0.315839,1271,244.698,314.153,1284.94,1043.81,,,,
0.18,175.781,4.41451,228,124.931,0.276349,1228,252.256,312.9,1246.44,1012.53,,,,
0.184,179.6875,4.658015,186,131.822,0.241804,1186,259.148,310.454,1213.29,985.61,,,,
0.188,183.594,4.877955,146,138.046,0.214893,1146,265.372,307.188,1184.84,962.492,,,,
0.192,187.5,5.082185,110,143.826,0.142715,1110,271.152,304.018,1159.58,941.976,,,,
0.196,191.406,5.254995,77,148.716,0.0892166,1077,276.042,300.3,1139.04,925.288,,,,
0.2,195.3125,5.43566,48,153.829,0.0485301,1048,281.155,297.627,1118.32,908.461,,,,
0.204,199.219,5.569195,24,157.608,0.0324291,1024,284.934,294.72,1103.49,896.413,,,,
0.208,203.125,5.68702,4,160.943,0.046512,1004,288.268,292.345,1090.73,886.044,,,,
0.212,207.031,5.79699,-14,164.055,0.0782885,986,291.381,290.203,1079.08,876.58,,,,
0.216,210.9375,5.851975,-28,165.611,0.139832,972,292.937,287.611,1073.35,871.924,,,,
0.22,214.844,5.90696,-40,167.167,0.160013,960,294.493,285.569,1067.67,867.316,,,,
0.224,218.75,5.93838,-49,168.056,0.186411,951,295.382,283.746,1064.46,864.706,,,,
0.228,222.656,5.93838,-55,168.056,0.221619,945,295.382,281.955,1064.46,864.706,,,,
0.232,226.5625,5.90696,-58,167.167,0.241939,942,294.493,280.214,1067.67,867.316,,,,
0.236,230.469,5.883395,-59,166.5,0.280531,941,293.826,279.283,1070.1,869.285,,,,
0.24,234.375,5.79699,-56,164.055,0.314915,944,291.381,277.842,1079.08,876.58,,,,
0.244,238.281,5.68702,-51,160.943,0.327073,949,288.268,276.33,1090.73,886.044,,,,
0.248,242.1875,5.569195,-43,157.608,0.329074,957,284.934,275.436,1103.49,896.413,,,,
0.252,246.094,5.43566,-34,153.829,0.318303,966,281.155,274.339,1118.32,908.461,,,,
0.256,250,5.254995,-24,148.716,0.22821,976,276.042,272.138,1139.04,925.288,,,,
0.26,,5.082185,-11,143.826,,989,271.152,270.878,1159.58,941.976,,,,
0.264,,4.88581,3,138.268,,1003,265.594,269.082,1183.84,961.687,,,,
0.268,,4.658015,20,131.822,,1020,259.148,267.001,1213.29,985.61,,,,
0.272,,4.41451,41,124.931,,1041,252.256,265.251,1246.44,1012.53,,,,
0.276,,4.155295,65,117.595,,1065,244.921,263.475,1283.77,1042.86,,,,
0.28,,3.89608,92,110.259,,1092,237.585,262.063,1323.41,1075.06,,,,
0.284,,3.64472,122,103.146,,1122,230.471,261.201,1364.26,1108.24,,,,
0.288,,3.385505,156,95.8098,,1156,223.136,260.55,1409.11,1144.68,,,,
0.292,,3.102725,191,87.8071,,1191,215.133,258.811,1461.53,1187.26,,,,
0.296,,2.867075,231,81.1382,,1231,208.464,259.211,1508.28,1225.24,,,,
0.3,,2.60786,271,73.8024,,1271,201.128,258.216,1563.29,1269.93,,,,
0.304,,2.348645,319,66.4667,,1319,193.792,258.194,1622.47,1318,,,,
0.308,,2.12085,366,60.0201,,1366,187.346,258.499,1678.3,1363.35,,,,
0.312,,1.91662,416,54.2403,,1416,181.566,259.695,1731.72,1406.75,,,,
0.316,,1.720245,470,48.6829,,1470,176.009,261.346,1786.4,1451.17,,,,
0.32,,1.55529,523,44.0147,,1523,171.34,263.587,1835.07,1490.71,,,,
0.324,,1.38248,578,39.1242,,1578,166.45,265.311,1888.99,1534.51,,,,
0.328,,1.248945,633,35.3451,,1633,162.671,268.325,1932.87,1570.15,,,,
0.332,,1.13112,685,32.0107,,1685,159.336,271.194,1973.32,1603.01,,,,
0.336,,1.029005,737,29.1208,,1737,156.447,274.493,2009.77,1632.62,,,,
0.34,,0.9426,782,26.67558,,1782,154.001,277.202,2041.68,1658.55,,,,
0.344,,0.887615,825,25.1195,,1825,152.445,281.023,2062.53,1675.48,,,,
0.348,,0.83263,857,23.5634,,1857,150.889,283.032,2083.8,1692.75,,,,
0.352,,0.80121,884,22.6742,,1884,150,285.455,2096.15,1702.79,,,,
0.356,,0.80121,901,22.6742,,1901,150,288.03,2096.15,1702.79,,,,
0.36,,0.80121,908,22.6742,,1908,150,289.091,2096.15,1702.79,,,,
0.364,,0.81692,910,23.1188,,1910,150.445,290.252,2089.95,1697.76,,,,
0.368,,0.86405,903,24.4526,,1903,151.778,291.752,2071.59,1682.84,,,,
0.372,,0.9426,889,26.67558,,1889,154.001,293.847,2041.68,1658.55,,,,
0.376,,1.029005,869,29.1208,,1869,156.447,295.352,2009.77,1632.62,,,,
0.38,,1.138975,845,32.233,,1845,159.559,297.359,1970.57,1600.78,,,,
0.384,,1.27251,816,36.012,,1816,163.338,299.618,1924.98,1563.74,,,,
0.388,,1.4139,784,40.01337,,1784,167.339,301.548,1878.95,1526.35,,,,
0.392,,1.578855,749,44.6816,,1749,172.007,303.88,1827.96,1484.93,,,,
0.396,,1.77523,709,50.239,,1709,177.565,306.523,1770.75,1438.45,,,,
0.4,,1.971605,668,55.7964,,1668,183.122,308.533,1717.01,1394.8,,,,
0.404,,2.1994,622,62.24302,,1622,189.569,310.586,1658.62,1347.37,,,,
0.408,,2.43505,577,68.9119,,1577,196.238,312.593,1602.25,1301.58,,,,
0.412,,2.68641,531,76.0254,,1531,203.351,314.475,1546.2,1256.05,,,,
0.416,,2.961335,483,83.8058,,1483,211.132,316.271,1489.22,1209.76,,,,
0.42,,3.22055,435,91.1416,,1435,218.467,316.667,1439.22,1169.14,,,,
0.424,,3.511185,387,99.3665,,1387,226.692,317.598,1387,1126.72,,,,
0.428,,3.762545,340,106.48,,1340,233.806,316.464,1344.8,1092.44,,,,
0.432,,4.029615,293,114.038,,1293,241.364,315.236,1302.69,1058.23,,,,
0.436,,4.27312,249,120.929,,1249,248.255,313.203,1266.53,1028.85,,,,
0.44,,4.532335,207,128.265,,1207,255.591,311.614,1230.18,999.325,,,,
0.444,,4.77584,167,135.156,,1167,262.482,309.411,1197.88,973.089,,,,
0.448,,4.98007,128,140.936,,1128,268.262,305.656,1172.07,952.124,,,,
0.452,,5.176445,94,146.493,,1094,273.819,302.584,1148.28,932.8,,,,
0.456,,5.349255,63,151.384,,1063,278.71,299.261,1128.14,916.432,,,,
0.46,,5.51421,35,156.052,,1035,283.3779,296.259,1109.55,901.335,,,,
0.464,,5.632035,13,159.387,,1013,286.712,293.373,1096.65,890.852,,,,
0.468,,5.742005,-7,162.499,,993,289.824,290.703,1084.87,881.286,,,,
0.472,,5.836265,-23,165.166,,977,292.492,288.651,1074.98,873.249,,,,
0.476,,5.883395,-36,166.5,,964,293.826,286.109,1070.1,869.285,,,,
0.48,,5.914815,-47,167.389,,953,294.715,283.7,1066.87,866.662,,,,
0.484,,5.93838,-54,168.056,,946,295.382,282.254,1064.46,864.706,,,,
0.488,,5.93838,-59,168.056,,941,295.382,280.762,1064.46,864.706,,,,
0.492,,5.90696,-61,167.167,,939,294.493,279.322,1067.67,867.316,,,,
0.496,,5.82841,-59,164.944,,941,292.27,277.804,1075.79,873.913,,,,
0.5,,5.742005,-55,162.499,,945,289.824,276.651,1084.87,881.286,,,,